"File_140410_103256_182423 - RawData"
"Wavelength nm." "Abs."
200.00 0.2533
201.00 0.2318
202.00 0.2106
203.00 0.1932
204.00 0.1771
205.00 0.1644
206.00 0.1513
207.00 0.1406
208.00 0.1301
209.00 0.1203
210.00 0.1114
211.00 0.1029
212.00 0.0954
213.00 0.0889
214.00 0.0817
215.00 0.0751
216.00 0.0692
217.00 0.0627
218.00 0.0570
219.00 0.0513
220.00 0.0459
221.00 0.0410
222.00 0.0365
223.00 0.0325
224.00 0.0287
225.00 0.0244
226.00 0.0210
227.00 0.0176
228.00 0.0145
229.00 0.0121
230.00 0.0093
231.00 0.0070
232.00 0.0049
233.00 0.0026
234.00 0.0008
235.00 -0.0008
236.00 -0.0021
237.00 -0.0035
238.00 -0.0048
239.00 -0.0058
240.00 -0.0068
241.00 -0.0076
242.00 -0.0086
243.00 -0.0093
244.00 -0.0098
245.00 -0.0103
246.00 -0.0108
247.00 -0.0114
248.00 -0.0117
249.00 -0.0119
250.00 -0.0123
251.00 -0.0126
252.00 -0.0131
253.00 -0.0131
254.00 -0.0133
255.00 -0.0135
256.00 -0.0137
257.00 -0.0141
258.00 -0.0141
259.00 -0.0142
260.00 -0.0145
261.00 -0.0146
262.00 -0.0147
263.00 -0.0150
264.00 -0.0152
265.00 -0.0150
266.00 -0.0150
267.00 -0.0150
268.00 -0.0152
269.00 -0.0155
270.00 -0.0154
271.00 -0.0154
272.00 -0.0154
273.00 -0.0155
274.00 -0.0158
275.00 -0.0159
276.00 -0.0159
277.00 -0.0161
278.00 -0.0162
279.00 -0.0162
280.00 -0.0159
281.00 -0.0164
282.00 -0.0169
283.00 -0.0170
284.00 -0.0171
285.00 -0.0172
286.00 -0.0170
287.00 -0.0172
288.00 -0.0178
289.00 -0.0179
290.00 -0.0178
291.00 -0.0179
292.00 -0.0182
293.00 -0.0186
294.00 -0.0183
295.00 -0.0188
296.00 -0.0188
297.00 -0.0188
298.00 -0.0191
299.00 -0.0193
300.00 -0.0197
301.00 -0.0198
302.00 -0.0201
303.00 -0.0202
304.00 -0.0203
305.00 -0.0201
306.00 -0.0201
307.00 -0.0200
308.00 -0.0200
309.00 -0.0202
310.00 -0.0203
311.00 -0.0206
312.00 -0.0204
313.00 -0.0210
314.00 -0.0208
315.00 -0.0201
316.00 -0.0212
317.00 -0.0207
318.00 -0.0209
319.00 -0.0210
320.00 -0.0207
321.00 -0.0207
322.00 -0.0209
323.00 -0.0208
324.00 -0.0211
325.00 -0.0208
326.00 -0.0209
327.00 -0.0214
328.00 -0.0213
329.00 -0.0215
330.00 -0.0216
331.00 -0.0213
332.00 -0.0214
333.00 -0.0222
334.00 -0.0217
335.00 -0.0215
336.00 -0.0220
337.00 -0.0219
338.00 -0.0220
339.00 -0.0222
340.00 -0.0225
341.00 -0.0231
342.00 -0.0233
343.00 -0.0234
344.00 -0.0232
345.00 -0.0232
346.00 -0.0232
347.00 -0.0231
348.00 -0.0233
349.00 -0.0234
350.00 -0.0234
351.00 -0.0233
352.00 -0.0232
353.00 -0.0234
354.00 -0.0235
355.00 -0.0235
356.00 -0.0235
357.00 -0.0235
358.00 -0.0237
359.00 -0.0236
360.00 -0.0235
361.00 -0.0235
362.00 -0.0238
363.00 -0.0237
364.00 -0.0236
365.00 -0.0233
366.00 -0.0232
367.00 -0.0233
368.00 -0.0235
369.00 -0.0233
370.00 -0.0233
371.00 -0.0235
372.00 -0.0234
373.00 -0.0234
374.00 -0.0236
375.00 -0.0237
376.00 -0.0235
377.00 -0.0234
378.00 -0.0235
379.00 -0.0235
380.00 -0.0237
381.00 -0.0235
382.00 -0.0236
383.00 -0.0237
384.00 -0.0237
385.00 -0.0237
386.00 -0.0237
387.00 -0.0238
388.00 -0.0238
389.00 -0.0238
390.00 -0.0239
391.00 -0.0240
392.00 -0.0238
393.00 -0.0239
394.00 -0.0240
395.00 -0.0242
396.00 -0.0240
397.00 -0.0241
398.00 -0.0240
399.00 -0.0240
400.00 -0.0240
401.00 -0.0239
402.00 -0.0239
403.00 -0.0240
404.00 -0.0239
405.00 -0.0240
406.00 -0.0239
407.00 -0.0240
408.00 -0.0241
409.00 -0.0241
410.00 -0.0241
411.00 -0.0240
412.00 -0.0240
413.00 -0.0240
414.00 -0.0241
415.00 -0.0241
416.00 -0.0243
417.00 -0.0247
418.00 -0.0247
419.00 -0.0247
420.00 -0.0247
421.00 -0.0247
422.00 -0.0247
423.00 -0.0248
424.00 -0.0247
425.00 -0.0247
426.00 -0.0247
427.00 -0.0248
428.00 -0.0247
429.00 -0.0248
430.00 -0.0248
431.00 -0.0249
432.00 -0.0248
433.00 -0.0249
434.00 -0.0249
435.00 -0.0249
436.00 -0.0249
437.00 -0.0249
438.00 -0.0249
439.00 -0.0250
440.00 -0.0249
441.00 -0.0249
442.00 -0.0248
443.00 -0.0248
444.00 -0.0248
445.00 -0.0249
446.00 -0.0249
447.00 -0.0249
448.00 -0.0249
449.00 -0.0249
450.00 -0.0249
451.00 -0.0249
452.00 -0.0249
453.00 -0.0249
454.00 -0.0249
455.00 -0.0249
456.00 -0.0249
457.00 -0.0249
458.00 -0.0248
459.00 -0.0249
460.00 -0.0249
461.00 -0.0250
462.00 -0.0249
463.00 -0.0250
464.00 -0.0249
465.00 -0.0249
466.00 -0.0250
467.00 -0.0250
468.00 -0.0250
469.00 -0.0250
470.00 -0.0250
471.00 -0.0250
472.00 -0.0251
473.00 -0.0251
474.00 -0.0250
475.00 -0.0250
476.00 -0.0250
477.00 -0.0249
478.00 -0.0250
479.00 -0.0250
480.00 -0.0250
481.00 -0.0250
482.00 -0.0249
483.00 -0.0249
484.00 -0.0249
485.00 -0.0250
486.00 -0.0250
487.00 -0.0249
488.00 -0.0249
489.00 -0.0248
490.00 -0.0248
491.00 -0.0249
492.00 -0.0249
493.00 -0.0248
494.00 -0.0248
495.00 -0.0247
496.00 -0.0247
497.00 -0.0247
498.00 -0.0247
499.00 -0.0246
500.00 -0.0246
501.00 -0.0246
502.00 -0.0246
503.00 -0.0246
504.00 -0.0246
505.00 -0.0246
506.00 -0.0245
507.00 -0.0245
508.00 -0.0244
509.00 -0.0244
510.00 -0.0244
511.00 -0.0243
512.00 -0.0242
513.00 -0.0241
514.00 -0.0241
515.00 -0.0240
516.00 -0.0240
517.00 -0.0240
518.00 -0.0240
519.00 -0.0240
520.00 -0.0240
521.00 -0.0240
522.00 -0.0240
523.00 -0.0240
524.00 -0.0239
525.00 -0.0239
526.00 -0.0239
527.00 -0.0239
528.00 -0.0239
529.00 -0.0239
530.00 -0.0238
531.00 -0.0238
532.00 -0.0238
533.00 -0.0238
534.00 -0.0237
535.00 -0.0238
536.00 -0.0237
537.00 -0.0236
538.00 -0.0236
539.00 -0.0235
540.00 -0.0234
541.00 -0.0235
542.00 -0.0235
543.00 -0.0234
544.00 -0.0233
545.00 -0.0233
546.00 -0.0233
547.00 -0.0232
548.00 -0.0232
549.00 -0.0232
550.00 -0.0231
551.00 -0.0231
552.00 -0.0231
553.00 -0.0231
554.00 -0.0230
555.00 -0.0229
556.00 -0.0229
557.00 -0.0229
558.00 -0.0229
559.00 -0.0229
560.00 -0.0229
561.00 -0.0229
562.00 -0.0228
563.00 -0.0228
564.00 -0.0228
565.00 -0.0228
566.00 -0.0228
567.00 -0.0227
568.00 -0.0226
569.00 -0.0226
570.00 -0.0226
571.00 -0.0225
572.00 -0.0224
573.00 -0.0224
574.00 -0.0223
575.00 -0.0222
576.00 -0.0221
577.00 -0.0220
578.00 -0.0220
579.00 -0.0218
580.00 -0.0217
581.00 -0.0215
582.00 -0.0212
583.00 -0.0211
584.00 -0.0208
585.00 -0.0207
586.00 -0.0204
587.00 -0.0202
588.00 -0.0200
589.00 -0.0198
590.00 -0.0196
591.00 -0.0193
592.00 -0.0191
593.00 -0.0188
594.00 -0.0185
595.00 -0.0181
596.00 -0.0177
597.00 -0.0172
598.00 -0.0166
599.00 -0.0161
600.00 -0.0156
601.00 -0.0150
602.00 -0.0147
603.00 -0.0143
604.00 -0.0142
605.00 -0.0141
606.00 -0.0139
607.00 -0.0139
608.00 -0.0138
609.00 -0.0138
610.00 -0.0137
611.00 -0.0136
612.00 -0.0137
613.00 -0.0136
614.00 -0.0136
615.00 -0.0136
616.00 -0.0135
617.00 -0.0135
618.00 -0.0134
619.00 -0.0134
620.00 -0.0133
621.00 -0.0132
622.00 -0.0132
623.00 -0.0130
624.00 -0.0130
625.00 -0.0130
626.00 -0.0128
627.00 -0.0128
628.00 -0.0128
629.00 -0.0128
630.00 -0.0128
631.00 -0.0126
632.00 -0.0126
633.00 -0.0126
634.00 -0.0125
635.00 -0.0124
636.00 -0.0123
637.00 -0.0122
638.00 -0.0121
639.00 -0.0120
640.00 -0.0119
641.00 -0.0119
642.00 -0.0118
643.00 -0.0116
644.00 -0.0116
645.00 -0.0114
646.00 -0.0113
647.00 -0.0113
648.00 -0.0112
649.00 -0.0112
650.00 -0.0111
651.00 -0.0109
652.00 -0.0108
653.00 -0.0106
654.00 -0.0103
655.00 -0.0100
656.00 -0.0097
657.00 -0.0094
658.00 -0.0091
659.00 -0.0089
660.00 -0.0087
661.00 -0.0085
662.00 -0.0083
663.00 -0.0082
664.00 -0.0082
665.00 -0.0083
666.00 -0.0081
667.00 -0.0081
668.00 -0.0080
669.00 -0.0080
670.00 -0.0079
671.00 -0.0079
672.00 -0.0078
673.00 -0.0079
674.00 -0.0078
675.00 -0.0076
676.00 -0.0076
677.00 -0.0074
678.00 -0.0073
679.00 -0.0072
680.00 -0.0071
681.00 -0.0070
682.00 -0.0068
683.00 -0.0066
684.00 -0.0064
685.00 -0.0062
686.00 -0.0060
687.00 -0.0058
688.00 -0.0054
689.00 -0.0052
690.00 -0.0049
691.00 -0.0045
692.00 -0.0042
693.00 -0.0038
694.00 -0.0033
695.00 -0.0028
696.00 -0.0024
697.00 -0.0019
698.00 -0.0014
699.00 -0.0007
700.00 -0.0001
701.00 0.0006
702.00 0.0013
703.00 0.0020
704.00 0.0029
705.00 0.0036
706.00 0.0045
707.00 0.0055
708.00 0.0065
709.00 0.0075
710.00 0.0086
711.00 0.0099
712.00 0.0113
713.00 0.0128
714.00 0.0145
715.00 0.0163
716.00 0.0181
717.00 0.0201
718.00 0.0221
719.00 0.0244
720.00 0.0266
721.00 0.0289
722.00 0.0313
723.00 0.0337
724.00 0.0362
725.00 0.0390
726.00 0.0420
727.00 0.0451
728.00 0.0488
729.00 0.0532
730.00 0.0579
731.00 0.0628
732.00 0.0679
733.00 0.0726
734.00 0.0771
735.00 0.0809
736.00 0.0841
737.00 0.0867
738.00 0.0887
739.00 0.0903
740.00 0.0914
741.00 0.0921
742.00 0.0926
743.00 0.0930
744.00 0.0932
745.00 0.0934
746.00 0.0936
747.00 0.0937
748.00 0.0939
749.00 0.0940
750.00 0.0941
751.00 0.0941
752.00 0.0942
753.00 0.0943
754.00 0.0944
755.00 0.0944
756.00 0.0944
757.00 0.0944
758.00 0.0944
759.00 0.0943
760.00 0.0942
761.00 0.0941
762.00 0.0939
763.00 0.0938
764.00 0.0937
765.00 0.0934
766.00 0.0933
767.00 0.0929
768.00 0.0925
769.00 0.0923
770.00 0.0918
771.00 0.0913
772.00 0.0909
773.00 0.0904
774.00 0.0898
775.00 0.0892
776.00 0.0885
777.00 0.0879
778.00 0.0872
779.00 0.0865
780.00 0.0857
781.00 0.0849
782.00 0.0841
783.00 0.0832
784.00 0.0824
785.00 0.0815
786.00 0.0805
787.00 0.0795
788.00 0.0786
789.00 0.0776
790.00 0.0766
791.00 0.0757
792.00 0.0746
793.00 0.0737
794.00 0.0728
795.00 0.0717
796.00 0.0708
797.00 0.0699
798.00 0.0691
799.00 0.0683
800.00 0.0677
801.00 0.0670
802.00 0.0664
803.00 0.0659
804.00 0.0654
805.00 0.0650
806.00 0.0647
807.00 0.0646
808.00 0.0646
809.00 0.0646
810.00 0.0648
811.00 0.0651
812.00 0.0655
813.00 0.0659
814.00 0.0665
815.00 0.0672
816.00 0.0680
817.00 0.0689
818.00 0.0699
819.00 0.0712
820.00 0.0727
821.00 0.0744
822.00 0.0763
823.00 0.0787
824.00 0.0817
825.00 0.0854
826.00 0.0897
827.00 0.0947
828.00 0.1001
829.00 0.1058
830.00 0.1116
831.00 0.1172
832.00 0.1222
833.00 0.1264
834.00 0.1298
835.00 0.1327
836.00 0.1350
837.00 0.1369
838.00 0.1386
839.00 0.1402
840.00 0.1416
841.00 0.1429
842.00 0.1443
843.00 0.1456
844.00 0.1468
845.00 0.1481
846.00 0.1494
847.00 0.1507
848.00 0.1520
849.00 0.1533
850.00 0.1546
851.00 0.1559
852.00 0.1572
853.00 0.1585
854.00 0.1597
855.00 0.1608
856.00 0.1621
857.00 0.1633
858.00 0.1644
859.00 0.1656
860.00 0.1667
861.00 0.1680
862.00 0.1691
863.00 0.1704
864.00 0.1717
865.00 0.1731
866.00 0.1744
867.00 0.1758
868.00 0.1773
869.00 0.1790
870.00 0.1807
871.00 0.1825
872.00 0.1842
873.00 0.1863
874.00 0.1883
875.00 0.1904
876.00 0.1927
877.00 0.1950
878.00 0.1973
879.00 0.1997
880.00 0.2022
881.00 0.2047
882.00 0.2072
883.00 0.2098
884.00 0.2124
885.00 0.2152
886.00 0.2177
887.00 0.2202
888.00 0.2225
889.00 0.2249
890.00 0.2273
891.00 0.2297
892.00 0.2322
893.00 0.2346
894.00 0.2370
895.00 0.2394
896.00 0.2417
897.00 0.2441
898.00 0.2466
899.00 0.2491
900.00 0.2516
901.00 0.2542
902.00 0.2570
903.00 0.2597
904.00 0.2627
905.00 0.2656
906.00 0.2688
907.00 0.2721
908.00 0.2756
909.00 0.2793
910.00 0.2832
911.00 0.2875
912.00 0.2922
913.00 0.2973
914.00 0.3028
915.00 0.3088
916.00 0.3155
917.00 0.3227
918.00 0.3307
919.00 0.3397
920.00 0.3496
921.00 0.3603
922.00 0.3721
923.00 0.3850
924.00 0.3989
925.00 0.4142
926.00 0.4313
927.00 0.4499
928.00 0.4702
929.00 0.4911
930.00 0.5121
931.00 0.5337
932.00 0.5568
933.00 0.5811
934.00 0.6072
935.00 0.6343
936.00 0.6621
937.00 0.6916
938.00 0.7222
939.00 0.7531
940.00 0.7864
941.00 0.8213
942.00 0.8565
943.00 0.8943
944.00 0.9350
945.00 0.9775
946.00 1.0244
947.00 1.0740
948.00 1.1281
949.00 1.1874
950.00 1.2498
951.00 1.3171
952.00 1.3883
953.00 1.4621
954.00 1.5368
955.00 1.6091
956.00 1.6756
957.00 1.7355
958.00 1.7875
959.00 1.8319
960.00 1.8691
961.00 1.8996
962.00 1.9244
963.00 1.9440
964.00 1.9605
965.00 1.9737
966.00 1.9850
967.00 1.9949
968.00 2.0032
969.00 2.0107
970.00 2.0172
971.00 2.0226
972.00 2.0273
973.00 2.0307
974.00 2.0334
975.00 2.0349
976.00 2.0349
977.00 2.0334
978.00 2.0306
979.00 2.0262
980.00 2.0207
981.00 2.0136
982.00 2.0052
983.00 1.9958
984.00 1.9855
985.00 1.9738
986.00 1.9613
987.00 1.9478
988.00 1.9333
989.00 1.9183
990.00 1.9024
991.00 1.8857
992.00 1.8684
993.00 1.8506
994.00 1.8319
995.00 1.8127
996.00 1.7931
997.00 1.7729
998.00 1.7527
999.00 1.7317
1000.00 1.7104
1001.00 1.6882
1002.00 1.6660
1003.00 1.6438
1004.00 1.6213
1005.00 1.5984
1006.00 1.5753
1007.00 1.5518
1008.00 1.5283
1009.00 1.5045
1010.00 1.4799
1011.00 1.4542
1012.00 1.4284
1013.00 1.4042
1014.00 1.3799
1015.00 1.3561
1016.00 1.3319
1017.00 1.3073
1018.00 1.2834
1019.00 1.2598
1020.00 1.2356
1021.00 1.2121
1022.00 1.1885
1023.00 1.1641
1024.00 1.1412
1025.00 1.1187
1026.00 1.0955
1027.00 1.0734
1028.00 1.0515
1029.00 1.0300
1030.00 1.0087
1031.00 0.9878
1032.00 0.9678
1033.00 0.9482
1034.00 0.9293
1035.00 0.9109
1036.00 0.8925
1037.00 0.8746
1038.00 0.8574
1039.00 0.8407
1040.00 0.8243
1041.00 0.8087
1042.00 0.7933
1043.00 0.7785
1044.00 0.7642
1045.00 0.7508
1046.00 0.7382
1047.00 0.7262
1048.00 0.7143
1049.00 0.7028
1050.00 0.6916
1051.00 0.6808
1052.00 0.6707
1053.00 0.6615
1054.00 0.6531
1055.00 0.6453
1056.00 0.6376
1057.00 0.6305
1058.00 0.6241
1059.00 0.6181
1060.00 0.6127
1061.00 0.6078
1062.00 0.6032
1063.00 0.5992
1064.00 0.5957
1065.00 0.5929
1066.00 0.5905
1067.00 0.5886
1068.00 0.5872
1069.00 0.5863
1070.00 0.5859
1071.00 0.5860
1072.00 0.5866
1073.00 0.5877
1074.00 0.5893
1075.00 0.5914
1076.00 0.5940
1077.00 0.5970
1078.00 0.6006
1079.00 0.6046
1080.00 0.6090
1081.00 0.6142
1082.00 0.6198
1083.00 0.6259
1084.00 0.6324
1085.00 0.6390
1086.00 0.6464
1087.00 0.6542
1088.00 0.6626
1089.00 0.6717
1090.00 0.6815
1091.00 0.6916
1092.00 0.7016
1093.00 0.7117
1094.00 0.7220
1095.00 0.7331
1096.00 0.7444
1097.00 0.7554
1098.00 0.7673
1099.00 0.7791
1100.00 0.7892
